LabVIEW Measurement
Writer_Version	2
Reader_Version	2
Separator	Tab
Decimal_Separator	.
Multi_Headings	Yes
X_Columns	No
Time_Pref	Relative
Operator	light
Date	2017/06/13
Time	19:49:00.9943318367004394532
***End_of_Header***	
	
Channels	2	
Samples	159	159	
Date	2017/06/13	2017/06/13	
Time	19:49:00.9943318367004394532	19:49:00.9943318367004394532	
X_Dimension	Time	Time	
X0	0.0000000000000000E+0	0.0000000000000000E+0	
Delta_X	1.000000	1.000000	
***End_of_Header***			
X_Value	X Array	Y Array	Comment
	0.000000	8.375000
	0.995000	8.375000
	1.005000	8.366026
	1.995000	8.366026
	2.005000	8.357051
	2.995000	8.357051
	3.005000	8.348077
	3.995000	8.348077
	4.005000	8.339103
	4.995000	8.339103
	5.005000	8.330128
	5.995000	8.330128
	6.005000	8.321154
	6.995000	8.321154
	7.005000	8.312179
	7.995000	8.312179
	8.005000	8.303205
	8.995000	8.303205
	9.005000	8.294231
	9.995000	8.294231
	10.005000	8.285256
	10.995000	8.285256
	11.005000	8.276282
	11.995000	8.276282
	12.005000	8.267308
	12.995000	8.267308
	13.005000	8.258333
	13.995000	8.258333
	14.005000	8.249359
	14.995000	8.249359
	15.005000	8.240385
	15.995000	8.240385
	16.005000	8.231410
	16.995000	8.231410
	17.005000	8.222436
	17.995000	8.222436
	18.005000	8.213462
	18.995000	8.213462
	19.005000	8.204487
	19.995000	8.204487
	20.005000	8.195513
	20.995000	8.195513
	21.005000	8.186538
	21.995000	8.186538
	22.005000	8.177564
	22.995000	8.177564
	23.005000	8.168590
	23.995000	8.168590
	24.005000	8.159615
	24.995000	8.159615
	25.005000	8.150641
	25.995000	8.150641
	26.005000	8.141667
	26.995000	8.141667
	27.005000	8.132692
	27.995000	8.132692
	28.005000	8.123718
	28.995000	8.123718
	29.005000	8.114744
	29.995000	8.114744
	30.005000	8.105769
	30.995000	8.105769
	31.005000	8.096795
	31.995000	8.096795
	32.005000	8.087821
	32.995000	8.087821
	33.005000	8.078846
	33.995000	8.078846
	34.005000	8.069872
	34.995000	8.069872
	35.005000	8.060897
	35.995000	8.060897
	36.005000	8.051923
	36.995000	8.051923
	37.005000	8.042949
	37.995000	8.042949
	38.005000	8.033974
	38.995000	8.033974
	39.005000	8.025000
	40.000000	8.025000
	40.995000	8.025000
	41.005000	8.033974
	41.995000	8.033974
	42.005000	8.042949
	42.995000	8.042949
	43.005000	8.051923
	43.995000	8.051923
	44.005000	8.060897
	44.995000	8.060897
	45.005000	8.069872
	45.995000	8.069872
	46.005000	8.078846
	46.995000	8.078846
	47.005000	8.087821
	47.995000	8.087821
	48.005000	8.096795
	48.995000	8.096795
	49.005000	8.105769
	49.995000	8.105769
	50.005000	8.114744
	50.995000	8.114744
	51.005000	8.123718
	51.995000	8.123718
	52.005000	8.132692
	52.995000	8.132692
	53.005000	8.141667
	53.995000	8.141667
	54.005000	8.150641
	54.995000	8.150641
	55.005000	8.159615
	55.995000	8.159615
	56.005000	8.168590
	56.995000	8.168590
	57.005000	8.177564
	57.995000	8.177564
	58.005000	8.186538
	58.995000	8.186538
	59.005000	8.195513
	59.995000	8.195513
	60.005000	8.204487
	60.995000	8.204487
	61.005000	8.213462
	61.995000	8.213462
	62.005000	8.222436
	62.995000	8.222436
	63.005000	8.231410
	63.995000	8.231410
	64.005000	8.240385
	64.995000	8.240385
	65.005000	8.249359
	65.995000	8.249359
	66.005000	8.258333
	66.995000	8.258333
	67.005000	8.267308
	67.995000	8.267308
	68.005000	8.276282
	68.995000	8.276282
	69.005000	8.285256
	69.995000	8.285256
	70.005000	8.294231
	70.995000	8.294231
	71.005000	8.303205
	71.995000	8.303205
	72.005000	8.312179
	72.995000	8.312179
	73.005000	8.321154
	73.995000	8.321154
	74.005000	8.330128
	74.995000	8.330128
	75.005000	8.339103
	75.995000	8.339103
	76.005000	8.348077
	76.995000	8.348077
	77.005000	8.357051
	77.995000	8.357051
	78.005000	8.366026
	78.995000	8.366026
	79.005000	8.375000
	80.000000	8.375000
